Folder: coinmetrics-data/csv

File: xrd.csv
time,ReferenceRate,ReferenceRateBTC,ReferenceRateETH,ReferenceRateEUR,ReferenceRateUSD,principal_market_price_usd,principal_market_usd
2023-08-18,0.0520843,1.95361e-06,3.08392e-05,0.0479193,0.0520843,0.0519712,gate.io-xrd-usdt-spot
2023-08-19,0.052796,2.0277e-06,3.17923e-05,0.0488703,0.052796,0.0527202,kucoin-xrd-usdt-spot
2023-08-20,0.0555007,2.12695e-06,3.32566e-05,0.0513917,0.0555007,0.0556055,mexc-xrd-usdt-spot
2023-08-21,0.0546541,2.08791e-06,3.24634e-05,0.0503246,0.0546541,0.054518,mexc-xrd-usdt-spot
2023-08-22,0.0537159,2.0558e-06,3.22176e-05,0.0492916,0.0537159,0.0536161,mexc-xrd-usdt-spot
2023-08-23,0.0546544,2.10386e-06,3.34915e-05,0.0503896,0.0546544,0.0547907,kucoin-xrd-usdt-spot
2023-08-24,0.0553686,2.09316e-06,3.29792e-05,0.0509919,0.0553686,0.0552436,kucoin-xrd-usdt-spot
2023-08-25,0.0528246,2.02186e-06,3.18866e-05,0.0488906,0.0528246,0.0528174,mexc-xrd-usdt-spot
2023-08-26,0.0537124,2.06262e-06,3.24945e-05,0.04978,0.0537124,0.053928,mexc-xrd-usdt-spot
2023-08-27,0.0532893,2.0491e-06,3.23764e-05,0.0493811,0.0532893,0.053244,kucoin-xrd-usdt-spot
2023-08-28,0.0527737,2.02304e-06,3.18537e-05,0.048884,0.0527737,0.0527788,mexc-xrd-usdt-spot
2023-08-29,0.0524045,2.00758e-06,3.17062e-05,0.0483553,0.0524045,0.0523835,kucoin-xrd-usdt-spot
2023-08-30,0.0538309,1.9453e-06,3.1171e-05,0.049476,0.0538309,0.0539655,kucoin-xrd-usdt-spot
2023-08-31,0.0527735,1.93317e-06,3.09514e-05,0.0482664,0.0527735,0.0528635,kucoin-xrd-usdt-spot
2023-09-01,0.0527768,2.03341e-06,3.207e-05,0.0486554,0.0527768,0.0527039,kucoin-xrd-usdt-spot
2023-09-02,0.0522024,2.02313e-06,3.20505e-05,0.0484432,0.0522024,0.0521109,kucoin-xrd-usdt-spot
2023-09-03,0.0519501,2.00825e-06,3.17372e-05,0.0482275,0.0519501,0.0519866,kucoin-xrd-usdt-spot
2023-09-04,0.0518845,1.99844e-06,3.17227e-05,0.0481563,0.0518845,0.0519353,kucoin-xrd-usdt-spot
2023-09-05,0.0517307,2.0051e-06,3.1787e-05,0.0479109,0.0517307,0.051842,mexc-xrd-usdt-spot
2023-09-06,0.0549036,2.1295e-06,3.3627e-05,0.0512094,0.0549036,0.0550038,kucoin-xrd-usdt-spot
2023-09-07,0.0538999,2.09281e-06,3.30189e-05,0.0502824,0.0538999,0.0539542,mexc-xrd-usdt-spot
2023-09-08,0.0541518,2.06603e-06,3.28974e-05,0.0506478,0.0541518,0.0542112,kucoin-xrd-usdt-spot
2023-09-09,0.0617897,2.38527e-06,3.77599e-05,0.0577595,0.0617897,0.0620301,kucoin-xrd-usdt-spot
2023-09-10,0.062955,2.4312e-06,3.85122e-05,0.0588789,0.062955,0.0630004,kucoin-xrd-usdt-spot
2023-09-11,0.0571941,2.21413e-06,3.53614e-05,0.0534201,0.0571941,0.0573682,kucoin-xrd-usdt-spot
2023-09-12,0.0548722,2.1831e-06,3.5416e-05,0.0510955,0.0548722,0.0547255,mexc-xrd-usdt-spot
2023-09-13,0.0570493,2.20611e-06,3.57898e-05,0.053051,0.0570493,0.0569403,mexc-xrd-usdt-spot
2023-09-14,,,,,,0.05665,kucoin-xrd-usdt-spot